##TITLE=TEST
##JCAMP-DX=4.24
##DATA TYPE=TGA
##ORIGIN=
##OWNER=
##XUNITS=Ts [Â°C]
##YUNITS=Value [mg]
##FIRSTX=41.025
##LASTX=662.535
##FIRSTY=6.70697
##LASTY=17.2068
##NPOINTS=2251
##$cheminfoFlavor=weightversustemperature
##PEAK TABLE=(XY..XY)
41.028 17.2039
41.025 17.2038
41.081 17.2037
41.271 17.2035
41.571 17.2034
41.893 17.2033
42.192 17.2032
42.535 17.2032
42.948 17.2033
43.361 17.2034
43.805 17.2036
44.269 17.2038
44.727 17.2042
45.225 17.2045
45.71 17.2049
46.206 17.2053
46.705 17.2056
47.208 17.206
47.722 17.2063
48.246 17.2065
48.746 17.2066
49.249 17.2067
49.751 17.2068
50.27 17.2068
50.783 17.2068
51.285 17.2067
51.804 17.2066
52.317 17.2065
52.826 17.2063
53.341 17.2062
53.854 17.206
54.357 17.2059
54.861 17.2058
55.369 17.2057
55.879 17.2055
56.395 17.2054
56.902 17.2054
57.403 17.2053
57.909 17.2052
58.405 17.2051
58.908 17.2051
59.421 17.205
59.932 17.205
60.427 17.2049
60.918 17.2049
61.439 17.2049
61.929 17.2048
62.441 17.2048
62.932 17.2047
63.446 17.2047
63.947 17.2047
64.44 17.2046
64.947 17.2046
65.456 17.2045
65.946 17.2045
66.454 17.2044
66.951 17.2043
67.447 17.2043
67.947 17.2042
68.459 17.2042
68.95 17.2041
69.457 17.204
69.953 17.204
70.453 17.2039
70.952 17.2038
71.453 17.2038
71.955 17.2037
72.451 17.2037
72.963 17.2036
73.465 17.2036
73.952 17.2035
74.464 17.2035
74.954 17.2034
75.46 17.2034
75.959 17.2033
76.453 17.2033
76.957 17.2032
77.442 17.2032
77.949 17.2031
78.454 17.203
78.95 17.203
79.444 17.2029
79.961 17.2028
80.445 17.2028
80.948 17.2027
81.445 17.2026
81.948 17.2025
82.444 17.2024
82.949 17.2023
83.455 17.2023
83.945 17.2022
84.444 17.2021
84.95 17.202
85.441 17.2019
85.932 17.2018
86.44 17.2017
86.94 17.2015
87.452 17.2014
87.942 17.2013
88.426 17.2012
88.939 17.2011
89.43 17.2009
89.938 17.2008
90.427 17.2007
90.931 17.2006
91.437 17.2004
91.937 17.2003
92.439 17.2001
92.926 17.2
93.437 17.1999
93.934 17.1997
94.429 17.1996
94.93 17.1995
95.438 17.1993
95.929 17.1992
96.431 17.199
96.94 17.1989
97.427 17.1987
97.94 17.1986
98.435 17.1985
98.939 17.1983
99.438 17.1981
99.932 17.198
100.434 17.1978
100.925 17.1976
101.434 17.1975
101.92 17.1973
102.43 17.1971
102.943 17.1969
103.43 17.1968
103.933 17.1966
104.426 17.1964
104.931 17.1962
105.429 17.196
105.946 17.1957
106.435 17.1955
106.941 17.1953
107.446 17.1951
107.96 17.1949
108.448 17.1947
108.956 17.1945
109.451 17.1943
109.964 17.1941
110.461 17.1939
110.964 17.1937
111.474 17.1934
111.971 17.1932
112.486 17.193
112.977 17.1928
113.475 17.1925
113.974 17.1923
114.484 17.192
114.982 17.1917
115.493 17.1914
115.999 17.1912
116.49 17.1909
117.008 17.1906
117.507 17.1903
118.021 17.1901
118.518 17.1898
119.021 17.1895
119.514 17.1892
120.035 17.189
120.535 17.1887
121.025 17.1884
121.536 17.1882
122.044 17.1879
122.55 17.1876
123.06 17.1874
123.573 17.1871
124.065 17.1869
124.581 17.1866
125.077 17.1863
125.59 17.186
126.094 17.1858
126.604 17.1855
127.108 17.1851
127.609 17.1848
128.127 17.1845
128.627 17.1842
129.13 17.1838
129.64 17.1835
130.159 17.1831
130.651 17.1828
131.167 17.1824
131.678 17.182
132.176 17.1816
132.684 17.1813
133.196 17.1809
133.703 17.1805
134.207 17.1801
134.712 17.1797
135.227 17.1793
135.73 17.1789
136.237 17.1785
136.738 17.1781
137.249 17.1777
137.757 17.1773
138.263 17.1768
138.778 17.1764
139.288 17.176
139.792 17.1756
140.298 17.1752
140.813 17.1747
141.324 17.1743
141.828 17.1738
142.335 17.1734
142.846 17.1729
143.36 17.1725
143.846 17.172
144.371 17.1715
144.878 17.171
145.388 17.1705
145.906 17.17
146.4 17.1695
146.912 17.1689
147.419 17.1684
147.925 17.1678
148.432 17.1672
148.947 17.1665
149.447 17.1659
149.961 17.1652
150.48 17.1644
150.992 17.1636
151.486 17.1628
151.994 17.1619
152.498 17.161
153.015 17.16
153.516 17.159
154.033 17.1579
154.533 17.1568
155.058 17.1557
155.567 17.1546
156.076 17.1534
156.581 17.1522
157.103 17.151
157.605 17.1497
158.12 17.1485
158.647 17.1473
159.157 17.146
159.666 17.1448
160.18 17.1436
160.694 17.1424
161.217 17.1411
161.723 17.1399
162.229 17.1387
162.752 17.1375
163.257 17.1363
163.773 17.1351
164.297 17.134
164.796 17.1328
165.325 17.1316
165.826 17.1305
166.333 17.1294
166.865 17.1282
167.376 17.1271
167.892 17.126
168.405 17.1249
168.927 17.1238
169.432 17.1226
169.956 17.1215
170.476 17.1204
170.993 17.1193
171.497 17.1181
172.012 17.117
172.521 17.1158
173.043 17.1146
173.557 17.1135
174.075 17.1123
174.591 17.1111
175.106 17.1099
175.62 17.1087
176.135 17.1075
176.655 17.1063
177.173 17.1051
177.692 17.1039
178.2 17.1026
178.719 17.1014
179.242 17.1002
179.763 17.0989
180.275 17.0977
180.789 17.0964
181.308 17.0951
181.816 17.0938
182.328 17.0926
182.858 17.0913
183.371 17.0899
183.894 17.0886
184.41 17.0873
184.925 17.086
185.442 17.0846
185.973 17.0832
186.484 17.0818
187.001 17.0804
187.518 17.079
188.044 17.0776
188.555 17.0761
189.08 17.0746
189.589 17.0731
190.112 17.0716
190.629 17.07
191.144 17.0684
191.667 17.0668
192.197 17.0651
192.718 17.0635
193.233 17.0618
193.756 17.06
194.282 17.0582
194.799 17.0564
195.306 17.0546
195.845 17.0527
196.356 17.0508
196.867 17.0489
197.39 17.047
197.912 17.045
198.44 17.0429
198.96 17.0409
199.471 17.0388
199.993 17.0367
200.524 17.0346
201.039 17.0324
201.565 17.0302
202.077 17.028
202.597 17.0257
203.117 17.0234
203.64 17.0211
204.15 17.0187
204.684 17.0163
205.206 17.0139
205.728 17.0115
206.254 17.009
206.776 17.0065
207.301 17.004
207.828 17.0014
208.335 16.9988
208.874 16.9962
209.386 16.9936
209.914 16.9909
210.425 16.9882
210.955 16.9854
211.474 16.9826
212.004 16.9798
212.53 16.977
213.054 16.9741
213.577 16.9712
214.102 16.9683
214.623 16.9654
215.143 16.9624
215.669 16.9594
216.188 16.9564
216.708 16.9534
217.231 16.9504
217.74 16.9473
218.275 16.9443
218.795 16.9412
219.312 16.9382
219.84 16.9351
220.356 16.9321
220.869 16.929
221.38 16.926
221.901 16.9229
222.415 16.9199
222.943 16.9169
223.455 16.9139
223.98 16.9109
224.488 16.908
225.008 16.905
225.506 16.9021
226.03 16.8992
226.553 16.8964
227.073 16.8935
227.581 16.8907
228.105 16.8879
228.623 16.8851
229.128 16.8824
229.649 16.8797
230.164 16.877
230.677 16.8743
231.194 16.8717
231.699 16.8691
232.216 16.8665
232.733 16.8639
233.251 16.8613
233.767 16.8588
234.279 16.8562
234.782 16.8537
235.306 16.8512
235.807 16.8487
236.333 16.8462
236.843 16.8437
237.363 16.8412
237.87 16.8387
238.387 16.8362
238.899 16.8338
239.412 16.8313
239.928 16.8288
240.452 16.8264
240.967 16.8239
241.476 16.8215
241.992 16.819
242.505 16.8166
243.018 16.8142
243.532 16.8117
244.047 16.8093
244.545 16.8069
245.079 16.8044
245.592 16.802
246.101 16.7996
246.614 16.7971
247.123 16.7947
247.646 16.7923
248.165 16.7898
248.672 16.7874
249.18 16.7849
249.7 16.7825
250.222 16.78
250.73 16.7776
251.249 16.7751
251.757 16.7727
252.282 16.7702
252.789 16.7677
253.294 16.7652
253.821 16.7628
254.336 16.7603
254.852 16.7578
255.357 16.7553
255.879 16.7528
256.4 16.7503
256.915 16.7478
257.426 16.7453
257.939 16.7427
258.455 16.7402
258.96 16.7376
259.477 16.7351
259.992 16.7325
260.51 16.7299
261.02 16.7273
261.536 16.7247
262.045 16.7221
262.566 16.7195
263.071 16.7169
263.591 16.7143
264.109 16.7116
264.624 16.709
265.133 16.7063
265.64 16.7037
266.16 16.701
266.672 16.6983
267.192 16.6956
267.696 16.6929
268.204 16.6902
268.726 16.6875
269.24 16.6848
269.75 16.682
270.256 16.6793
270.778 16.6765
271.293 16.6737
271.803 16.671
272.318 16.6682
272.839 16.6654
273.346 16.6625
273.862 16.6597
274.378 16.6569
274.886 16.654
275.402 16.6512
275.915 16.6483
276.439 16.6454
276.939 16.6425
277.454 16.6396
277.967 16.6367
278.48 16.6338
278.986 16.6308
279.498 16.6279
280.019 16.6249
280.526 16.6219
281.048 16.6189
281.556 16.6159
282.066 16.6129
282.577 16.6099
283.086 16.6069
283.593 16.6038
284.105 16.6008
284.627 16.5977
285.138 16.5946
285.646 16.5916
286.173 16.5885
286.685 16.5854
287.19 16.5823
287.698 16.5792
288.216 16.5761
288.728 16.5729
289.241 16.5698
289.759 16.5667
290.262 16.5635
290.778 16.5604
291.29 16.5572
291.809 16.554
292.31 16.5509
292.822 16.5477
293.346 16.5445
293.839 16.5413
294.352 16.5381
294.858 16.5349
295.379 16.5316
295.891 16.5284
296.401 16.5252
296.914 16.522
297.418 16.5187
297.929 16.5155
298.439 16.5122
298.95 16.509
299.468 16.5057
299.979 16.5025
300.491 16.4992
301.001 16.496
301.507 16.4927
302.018 16.4894
302.529 16.4862
303.027 16.4829
303.542 16.4796
304.058 16.4764
304.563 16.4731
305.074 16.4698
305.599 16.4666
306.097 16.4633
306.607 16.46
307.123 16.4568
307.633 16.4535
308.143 16.4502
308.652 16.447
309.167 16.4437
309.666 16.4404
310.176 16.4371
310.681 16.4338
311.194 16.4305
311.702 16.4273
312.219 16.4239
312.727 16.4206
313.236 16.4173
313.749 16.414
314.251 16.4107
314.765 16.4073
315.269 16.404
315.79 16.4007
316.288 16.3973
316.795 16.394
317.305 16.3906
317.815 16.3872
318.319 16.3839
318.828 16.3805
319.347 16.3771
319.854 16.3737
320.364 16.3703
320.868 16.3669
321.379 16.3635
321.886 16.36
322.407 16.3566
322.912 16.3531
323.412 16.3496
323.926 16.3461
324.43 16.3426
324.941 16.3391
325.453 16.3355
325.959 16.332
326.466 16.3284
326.97 16.3248
327.488 16.3211
327.989 16.3175
328.503 16.3138
329.012 16.3101
329.516 16.3064
330.03 16.3027
330.53 16.2989
331.037 16.2951
331.553 16.2913
332.053 16.2874
332.568 16.2835
333.071 16.2796
333.578 16.2757
334.09 16.2717
334.593 16.2677
335.102 16.2636
335.611 16.2595
336.118 16.2553
336.626 16.2511
337.133 16.2469
337.638 16.2426
338.145 16.2382
338.661 16.2338
339.164 16.2294
339.671 16.2248
340.176 16.2202
340.686 16.2156
341.195 16.2109
341.703 16.2061
342.211 16.2012
342.724 16.1963
343.234 16.1913
343.74 16.1862
344.246 16.181
344.745 16.1757
345.252 16.1703
345.765 16.1649
346.274 16.1593
346.786 16.1536
347.293 16.1478
347.796 16.1419
348.299 16.1359
348.811 16.1298
349.314 16.1235
349.821 16.1171
350.327 16.1106
350.839 16.104
351.335 16.0972
351.856 16.0902
352.357 16.0831
352.863 16.0758
353.371 16.0684
353.874 16.0608
354.389 16.053
354.898 16.0451
355.404 16.0369
355.902 16.0286
356.417 16.02
356.923 16.0113
357.426 16.0023
357.935 15.9931
358.44 15.9836
358.943 15.9739
359.449 15.964
359.947 15.9538
360.454 15.9433
360.975 15.9326
361.478 15.9216
361.977 15.9102
362.485 15.8986
362.989 15.8866
363.509 15.8744
364.016 15.8618
364.518 15.8488
365.02 15.8355
365.522 15.8219
366.032 15.8078
366.535 15.7934
367.043 15.7785
367.554 15.7633
368.059 15.7476
368.564 15.7315
369.068 15.715
369.575 15.698
370.067 15.6805
370.583 15.6626
371.083 15.6441
371.599 15.6252
372.096 15.6056
372.59 15.5856
373.101 15.565
373.613 15.5439
374.11 15.5221
374.612 15.4997
375.113 15.4768
375.617 15.4533
376.121 15.429
376.63 15.4042
377.116 15.3787
377.629 15.3526
378.127 15.3257
378.626 15.2982
379.136 15.27
379.635 15.2411
380.141 15.2114
380.647 15.1811
381.14 15.1501
381.65 15.1183
382.154 15.0857
382.646 15.0525
383.149 15.0185
383.648 14.9838
384.153 14.9482
384.649 14.9121
385.145 14.8751
385.656 14.8375
386.151 14.799
386.646 14.7599
387.155 14.7202
387.642 14.6797
388.145 14.6384
388.647 14.5966
389.141 14.5541
389.646 14.511
390.136 14.4672
390.639 14.4228
391.148 14.3778
391.638 14.3323
392.136 14.2862
392.635 14.2396
393.127 14.1926
393.63 14.145
394.122 14.097
394.623 14.0485
395.116 13.9997
395.619 13.9505
396.112 13.9009
396.611 13.8511
397.115 13.8009
397.597 13.7505
398.1 13.6998
398.597 13.649
399.096 13.5979
399.59 13.5468
400.095 13.4954
400.583 13.4441
401.085 13.3927
401.589 13.3412
402.071 13.2898
402.569 13.2384
403.062 13.187
403.564 13.1357
404.056 13.0845
404.546 13.0335
405.041 12.9826
405.541 12.9319
406.039 12.8815
406.534 12.8312
407.027 12.7812
407.524 12.7315
408.027 12.6821
408.51 12.633
409.01 12.5842
409.503 12.5357
410.005 12.4877
410.495 12.4401
410.991 12.3928
411.484 12.3459
411.988 12.2995
412.477 12.2535
412.974 12.2078
413.468 12.1625
413.962 12.1177
414.456 12.0733
414.956 12.0291
415.438 11.9854
415.934 11.942
416.431 11.8989
416.921 11.8561
417.414 11.8136
417.915 11.7714
418.401 11.7294
418.887 11.6877
419.38 11.6462
419.883 11.605
420.365 11.5641
420.862 11.5234
421.353 11.4829
421.851 11.4428
422.346 11.4029
422.83 11.3632
423.326 11.3238
423.818 11.2848
424.321 11.246
424.813 11.2074
425.306 11.1692
425.803 11.1313
426.298 11.0937
426.793 11.0564
427.283 11.0194
427.788 10.9828
428.285 10.9464
428.773 10.9103
429.267 10.8745
429.768 10.8391
430.255 10.804
430.766 10.7691
431.257 10.7346
431.755 10.7004
432.245 10.6664
432.741 10.6328
433.253 10.5994
433.749 10.5663
434.242 10.5335
434.745 10.501
435.243 10.4688
435.757 10.4369
436.248 10.4053
436.743 10.3739
437.247 10.3427
437.753 10.3119
438.244 10.2814
438.751 10.251
439.254 10.221
439.759 10.1912
440.259 10.1616
440.754 10.1323
441.249 10.1032
441.757 10.0745
442.258 10.0459
442.752 10.0176
443.255 9.98955
443.753 9.9618
444.256 9.9343
444.761 9.90706
445.252 9.88008
445.752 9.85344
446.255 9.82704
446.76 9.80093
447.265 9.77509
447.764 9.7496
448.264 9.72437
448.761 9.69943
449.262 9.67479
449.758 9.65052
450.265 9.62652
450.767 9.60284
451.269 9.57947
451.768 9.55649
452.265 9.53381
452.763 9.51147
453.265 9.48947
453.773 9.4679
454.274 9.44666
454.771 9.42579
455.274 9.40528
455.775 9.38522
456.276 9.36551
456.77 9.34618
457.28 9.32725
457.774 9.30878
458.278 9.29069
458.779 9.273
459.282 9.25572
459.782 9.23892
460.277 9.22251
460.791 9.20651
461.282 9.19092
461.786 9.17584
462.272 9.16114
462.787 9.14686
463.278 9.13299
463.78 9.11963
464.282 9.10666
464.788 9.09411
465.298 9.08198
465.789 9.07034
466.291 9.05909
466.801 9.04823
467.298 9.03779
467.798 9.02781
468.301 9.01818
468.8 9.00894
469.304 9.00008
469.798 8.99165
470.304 8.98354
470.794 8.97578
471.301 8.96836
471.797 8.96133
472.301 8.95457
472.799 8.94813
473.292 8.94198
473.787 8.93617
474.29 8.93059
474.784 8.92529
475.282 8.92023
475.776 8.91546
476.277 8.9109
476.768 8.90655
477.257 8.90241
477.77 8.89851
478.264 8.89477
478.763 8.89122
479.263 8.88783
479.767 8.88464
480.257 8.88158
480.746 8.87866
481.25 8.87588
481.745 8.87325
482.24 8.87073
482.737 8.86831
483.243 8.86601
483.733 8.86383
484.228 8.86172
484.725 8.85971
485.222 8.85778
485.718 8.85594
486.211 8.85417
486.713 8.85247
487.203 8.85084
487.701 8.84928
488.2 8.84778
488.689 8.84633
489.185 8.84494
489.681 8.84361
490.178 8.84232
490.672 8.84108
491.169 8.83989
491.658 8.83875
492.152 8.83764
492.653 8.83658
493.148 8.83555
493.647 8.83457
494.134 8.83361
494.627 8.83269
495.118 8.8318
495.61 8.83094
496.105 8.83011
496.598 8.8293
497.082 8.82853
497.583 8.82778
498.079 8.82706
498.567 8.82636
499.07 8.82568
499.558 8.82503
500.056 8.8244
500.548 8.8238
501.042 8.82321
501.542 8.82263
502.034 8.82207
502.52 8.82152
503.022 8.82099
503.514 8.82046
504.011 8.81994
504.499 8.81942
504.99 8.81891
505.482 8.8184
505.974 8.81789
506.468 8.81738
506.967 8.81688
507.456 8.81638
507.948 8.81589
508.438 8.8154
508.932 8.81492
509.418 8.81445
509.919 8.81397
510.404 8.81351
510.899 8.81304
511.394 8.81258
511.886 8.81213
512.376 8.81167
512.876 8.81122
513.368 8.81078
513.859 8.81033
514.355 8.80988
514.84 8.80944
515.334 8.809
515.823 8.80856
516.323 8.80812
516.813 8.80768
517.312 8.80724
517.806 8.8068
518.293 8.80636
518.785 8.80592
519.28 8.80548
519.766 8.80505
520.266 8.80461
520.757 8.80417
521.245 8.80373
521.73 8.80329
522.237 8.80285
522.725 8.80241
523.211 8.80197
523.709 8.80153
524.197 8.8011
524.7 8.80066
525.181 8.80022
525.677 8.79978
526.161 8.79934
526.658 8.7989
527.152 8.79847
527.657 8.79803
528.143 8.79759
528.642 8.79715
529.131 8.79671
529.616 8.79627
530.109 8.79582
530.605 8.79538
531.097 8.79494
531.593 8.7945
532.079 8.79405
532.573 8.79361
533.073 8.79316
533.56 8.79272
534.054 8.79228
534.533 8.79183
535.033 8.79138
535.527 8.79094
536.006 8.79049
536.512 8.79004
537.003 8.7896
537.493 8.78915
537.981 8.7887
538.477 8.78824
538.972 8.78779
539.458 8.78733
539.966 8.78687
540.447 8.78641
540.941 8.78595
541.427 8.78548
541.921 8.78502
542.413 8.78456
542.906 8.78409
543.401 8.78363
543.89 8.78318
544.383 8.78272
544.885 8.78227
545.373 8.78183
545.867 8.78139
546.363 8.78095
546.859 8.78051
547.344 8.78008
547.836 8.77964
548.325 8.77921
548.817 8.77877
549.309 8.77832
549.808 8.77788
550.295 8.77742
550.794 8.77696
551.284 8.77649
551.769 8.77602
552.257 8.77553
552.757 8.77505
553.242 8.77456
553.732 8.77407
554.228 8.77357
554.716 8.77308
555.212 8.77259
555.704 8.7721
556.195 8.7716
556.687 8.77111
557.175 8.77062
557.67 8.77013
558.161 8.76964
558.644 8.76916
559.141 8.76867
559.629 8.76819
560.119 8.76771
560.612 8.76723
561.114 8.76675
561.599 8.76628
562.086 8.7658
562.574 8.76533
563.074 8.76486
563.572 8.76438
564.059 8.76391
564.551 8.76344
565.045 8.76297
565.536 8.76249
566.031 8.76202
566.519 8.76153
567.012 8.76105
567.501 8.76056
567.994 8.76007
568.484 8.75958
568.975 8.75909
569.47 8.75859
569.963 8.75809
570.452 8.75759
570.946 8.75709
571.438 8.75659
571.923 8.75608
572.418 8.75558
572.907 8.75508
573.398 8.75458
573.888 8.75408
574.382 8.75357
574.876 8.75307
575.367 8.75257
575.855 8.75207
576.349 8.75157
576.84 8.75107
577.332 8.75058
577.814 8.75008
578.311 8.74958
578.807 8.74908
579.293 8.74858
579.783 8.74809
580.272 8.74758
580.77 8.74708
581.257 8.74658
581.754 8.74607
582.237 8.74556
582.73 8.74505
583.226 8.74454
583.721 8.74402
584.209 8.7435
584.699 8.74298
585.196 8.74245
585.681 8.74192
586.179 8.7414
586.665 8.74087
587.162 8.74034
587.649 8.73981
588.149 8.73929
588.634 8.73877
589.122 8.73825
589.61 8.73774
590.103 8.73722
590.598 8.73671
591.092 8.7362
591.577 8.7357
592.071 8.73519
592.57 8.73468
593.05 8.73417
593.541 8.73366
594.036 8.73315
594.527 8.73262
595.02 8.73209
595.512 8.73156
596.007 8.73102
596.499 8.73048
596.985 8.72994
597.484 8.72939
597.968 8.72885
598.456 8.7283
598.949 8.72775
599.441 8.7272
599.93 8.72665
600.427 8.7261
600.911 8.72556
601.401 8.72501
601.897 8.72447
602.396 8.72394
602.881 8.72341
603.368 8.72287
603.862 8.72234
604.354 8.7218
604.846 8.72127
605.335 8.72073
605.825 8.7202
606.324 8.71967
606.809 8.71913
607.308 8.71859
607.79 8.71805
608.277 8.7175
608.774 8.71696
609.267 8.71641
609.755 8.71586
610.244 8.71531
610.733 8.71476
611.228 8.7142
611.724 8.71365
612.218 8.7131
612.704 8.71254
613.199 8.71199
613.689 8.71143
614.184 8.71087
614.668 8.71031
615.164 8.70975
615.649 8.70918
616.142 8.70862
616.634 8.70805
617.131 8.70747
617.621 8.7069
618.109 8.70633
618.599 8.70575
619.082 8.70518
619.581 8.70461
620.074 8.70403
620.559 8.70345
621.058 8.70287
621.547 8.70229
622.044 8.70171
622.539 8.70113
623.025 8.70055
623.517 8.69997
624.008 8.6994
624.506 8.69883
624.996 8.69825
625.491 8.69768
625.978 8.69709
626.465 8.69651
626.956 8.69593
627.445 8.69535
627.938 8.69477
628.43 8.69419
628.92 8.69361
629.408 8.69303
629.898 8.69245
630.398 8.69187
630.886 8.69128
631.378 8.69069
631.871 8.69011
632.355 8.68952
632.856 8.68894
633.349 8.68836
633.83 8.68778
634.322 8.68721
634.826 8.68663
635.304 8.68606
635.798 8.68548
636.286 8.68489
636.781 8.68431
637.284 8.68372
637.77 8.68314
638.263 8.68256
638.748 8.68198
639.329 8.6814
639.776 8.68081
640.083 8.68023
640.422 8.67964
640.77 8.67905
641.133 8.67846
641.491 8.67786
641.834 8.67725
642.162 8.67665
642.477 8.67604
642.784 8.67543
643.067 8.67482
643.352 8.6742
643.619 8.67359
643.887 8.67298
644.129 8.67237
644.368 8.67176
644.604 8.67117
644.83 8.67058
645.045 8.67
645.257 8.66942
645.458 8.66886
645.657 8.66829
645.843 8.66773
646.031 8.66718
646.218 8.66662
646.385 8.66607
646.554 8.66552
646.718 8.66498
646.88 8.66444
647.029 8.6639
647.178 8.66337
647.326 8.66285
647.473 8.66233
647.61 8.66181
647.748 8.6613
647.871 8.66079
647.995 8.66028
648.129 8.65977
648.246 8.65927
648.354 8.65876
648.47 8.65825
648.58 8.65774
648.692 8.65722
648.794 8.6567
648.898 8.65618
649.008 8.65565
649.1 8.65512
649.197 8.65458
649.285 8.65405
649.383 8.65352
649.465 8.65299
649.547 8.65246
649.644 8.65194
649.717 8.65141
649.792 8.65089
649.866 8.65037
649.944 8.64985
650.022 8.64933
650.094 8.64881
650.168 8.64829
650.225 8.64778
650.298 8.64726
650.356 8.64675
650.428 8.64624
650.483 8.64572
650.543 8.64521
650.602 8.64471
650.663 8.6442
650.722 8.6437
650.771 8.64319
650.827 8.64269
650.885 8.6422
650.94 8.6417
650.977 8.6412
651.025 8.64071
651.076 8.64022
651.122 8.63973
651.174 8.63924
651.218 8.63877
651.263 8.6383
651.299 8.63783
651.345 8.63738
651.383 8.63694
651.427 8.6365
651.471 8.63607
651.504 8.63565
651.535 8.63524
651.575 8.63482
651.611 8.63441
651.639 8.634
651.678 8.63359
651.713 8.63318
651.736 8.63277
651.776 8.63235
651.798 8.63192
651.841 8.63149
651.867 8.63104
651.893 8.63059
651.918 8.63013
651.951 8.62967
651.98 8.6292
652.002 8.62874
652.029 8.62827
652.054 8.6278
652.081 8.62733
652.095 8.62687
652.124 8.6264
652.148 8.62594
652.172 8.62549
652.197 8.62504
652.21 8.6246
652.234 8.62416
652.26 8.62372
652.277 8.62328
652.301 8.62285
652.327 8.62241
652.331 8.62196
652.354 8.62151
652.368 8.62106
652.392 8.62061
652.408 8.62015
652.422 8.61968
652.444 8.61922
652.457 8.61875
652.472 8.61829
652.49 8.61783
652.504 8.61737
652.517 8.61691
652.535 8.61645
652.546 8.616
652.56 8.61555
652.574 8.6151
652.589 8.61465
652.603 8.6142
652.615 8.61376
652.632 8.61331
652.64 8.61287
652.652 8.61242
652.663 8.61197
652.686 8.61152
652.698 8.61107
652.704 8.61062
652.716 8.61016
652.725 8.60971
652.735 8.60926
652.747 8.6088
652.754 8.60835
652.759 8.60789
652.776 8.60743
652.792 8.60697
652.804 8.60651
652.81 8.60605
652.822 8.60558
652.828 8.60511
652.838 8.60465
652.842 8.60418
652.88 8.60371
652.898 8.60324
652.915 8.60276
652.928 8.60226
652.939 8.60176
652.938 8.60125
652.945 8.60074
652.953 8.60022
652.964 8.59969
652.984 8.59914
653.034 8.59854
653.128 8.59788
653.27 8.59711
653.456 8.59621
653.685 8.59516
653.946 8.59383
654.226 8.59226
654.526 8.59036
654.841 8.58807
655.152 8.58518
655.48 8.58171
655.797 8.57758
656.116 8.5727
656.425 8.567
656.734 8.56053
657.023 8.55328
657.316 8.54527
657.583 8.5364
657.849 8.52682
658.1 8.51648
658.343 8.50546
658.567 8.49373
658.792 8.48152
658.999 8.46883
659.199 8.45572
659.383 8.44223
659.562 8.42848
659.728 8.41444
659.891 8.40015
660.044 8.3856
660.187 8.37092
660.326 8.35608
660.455 8.34109
660.576 8.32596
660.686 8.31076
660.802 8.29548
660.909 8.28011
661 8.26467
661.094 8.2492
661.186 8.23369
661.268 8.21813
661.345 8.20253
661.42 8.18692
661.498 8.17128
661.569 8.15563
661.632 8.13995
661.686 8.12428
661.747 8.10859
661.805 8.0929
661.859 8.07721
661.913 8.06153
661.947 8.04585
662.003 8.03017
662.046 8.01452
662.094 7.99888
662.128 7.98325
662.159 7.96764
662.194 7.95206
662.226 7.9365
662.252 7.92096
662.285 7.90545
662.321 7.88997
662.338 7.87452
662.363 7.8591
662.383 7.84372
662.407 7.82837
662.417 7.81307
662.432 7.79779
662.454 7.78256
662.465 7.76739
662.485 7.75225
662.493 7.73716
662.493 7.72212
662.505 7.70713
662.516 7.6922
662.529 7.67732
662.528 7.66248
662.535 7.64772
662.531 7.63301
662.522 7.61836
662.53 7.60375
662.531 7.58923
662.526 7.57475
662.514 7.56032
662.504 7.54596
662.505 7.53167
662.493 7.51743
662.485 7.50325
662.467 7.48912
662.443 7.47507
662.435 7.46108
662.416 7.44714
662.4 7.43326
662.384 7.41946
662.365 7.40572
662.35 7.39204
662.328 7.37842
662.299 7.36487
662.275 7.35139
662.249 7.33797
662.217 7.32461
662.197 7.31133
662.167 7.29811
662.137 7.28495
662.11 7.27186
662.068 7.25885
662.03 7.2459
662.006 7.23302
661.972 7.2202
661.934 7.20747
661.905 7.1948
661.868 7.1822
661.822 7.16968
661.78 7.15725
661.742 7.14489
661.691 7.1326
661.65 7.1204
661.6 7.10829
661.562 7.09626
661.517 7.08431
661.467 7.07245
661.424 7.06069
661.374 7.04902
661.319 7.03744
661.258 7.02595
661.203 7.01459
661.145 7.00332
661.087 6.99216
661.032 6.9811
660.953 6.97019
660.889 6.95939
660.817 6.94871
660.736 6.93816
660.662 6.92777
660.576 6.91752
660.495 6.90741
660.407 6.89744
660.316 6.88767
660.219 6.87805
660.107 6.8686
660.004 6.85932
659.89 6.85026
659.769 6.84138
659.641 6.83271
659.505 6.82424
659.363 6.81603
659.211 6.80805
659.059 6.80031
658.893 6.79283
658.702 6.78568
658.506 6.77881
658.287 6.77226
658.024 6.76603
657.761 6.76022
657.498 6.75476
657.274 6.74968
657.069 6.74499
656.885 6.74076
656.716 6.7369
656.559 6.73343
656.409 6.73035
656.265 6.72769
656.128 6.72534
656.011 6.72333
655.886 6.72161
655.779 6.72021
655.671 6.719
655.57 6.71799
655.475 6.71716
655.378 6.7165
655.3 6.71591
655.219 6.71542
655.133 6.71501
655.06 6.71468
654.993 6.71436
654.939 6.71407
654.88 6.7138
654.816 6.71356
654.76 6.71332
654.703 6.71308
654.655 6.71285
654.61 6.71263
654.561 6.71242
654.516 6.71222
654.475 6.71203
654.436 6.71186
654.401 6.7117
654.36 6.71156
654.33 6.71143
654.298 6.71133
654.266 6.71124
654.24 6.71117
654.207 6.71111
654.179 6.71105
654.149 6.71101
654.127 6.71096
654.1 6.71091
654.076 6.71086
654.059 6.71079
654.036 6.71072
654.019 6.71065
653.999 6.71058
653.982 6.7105
653.965 6.71043
653.946 6.71035
653.932 6.71028
653.923 6.71021
653.906 6.71015
653.887 6.7101
653.874 6.71006
653.863 6.71003
653.849 6.71001
653.84 6.71
653.824 6.70999
653.814 6.70998
653.806 6.70998
653.8 6.70998
653.792 6.70998
653.781 6.70998
653.773 6.70997
653.764 6.70997
653.754 6.70997
653.744 6.70997
653.742 6.70996
653.74 6.70995
653.727 6.70992
653.723 6.70988
653.715 6.70984
653.711 6.70979
653.703 6.70973
653.698 6.70966
653.693 6.70959
653.689 6.70952
653.691 6.70944
653.683 6.70937
653.682 6.7093
653.683 6.70923
653.682 6.70917
653.672 6.70912
653.662 6.70908
653.666 6.70904
653.655 6.70902
653.662 6.709
653.648 6.70899
653.652 6.70898
653.644 6.70898
653.64 6.70898
653.644 6.70898
653.637 6.70898
653.629 6.70898
653.639 6.70897
653.644 6.70897
653.638 6.70897
653.634 6.70897
653.635 6.70897
653.62 6.70897
653.621 6.70897
653.615 6.70897
653.622 6.70897
653.622 6.70897
653.621 6.70897
653.624 6.70897
653.616 6.70897
653.613 6.70897
653.613 6.70897
653.612 6.70897
653.612 6.70897
653.615 6.70897
653.616 6.70897
653.611 6.70897
653.616 6.70897
653.609 6.70897
653.607 6.70897
653.605 6.70897
653.61 6.70897
653.615 6.70897
653.601 6.70897
653.605 6.70897
653.609 6.70897
653.604 6.70897
653.604 6.70897
653.607 6.70897
653.604 6.70897
653.608 6.70897
653.606 6.70897
653.602 6.70897
653.604 6.70897
653.601 6.70897
653.607 6.70897
653.602 6.70897
653.601 6.70897
653.601 6.70897
653.598 6.70897
653.593 6.70897
653.59 6.70897
653.598 6.70897
653.59 6.70897
653.595 6.70897
653.597 6.70897
653.6 6.70897
653.591 6.70897
653.598 6.70897
653.603 6.70897
653.602 6.70897
653.599 6.70897
653.603 6.70897
653.599 6.70897
653.596 6.70897
653.606 6.70897
653.599 6.70897
653.595 6.70897
653.592 6.70897
653.593 6.70897
653.591 6.70897
653.601 6.70897
653.602 6.70897
653.608 6.70897
653.608 6.70897
653.607 6.70897
653.613 6.70897
653.607 6.70897
653.603 6.70897
653.605 6.70897
653.606 6.70897
653.612 6.70897
653.612 6.70897
653.615 6.70897
653.606 6.70897
653.609 6.70897
653.615 6.70897
653.612 6.70897
653.61 6.70897
653.614 6.70897
653.606 6.70897
653.608 6.70897
653.608 6.70897
653.607 6.70897
653.616 6.70897
653.614 6.70897
653.611 6.70897
653.612 6.70897
653.612 6.70897
653.615 6.70897
653.609 6.70897
653.615 6.70897
653.606 6.70897
653.617 6.70896
653.613 6.70895
653.6 6.70893
653.603 6.70891
653.61 6.70887
653.61 6.70884
653.612 6.70879
653.62 6.70874
653.615 6.70868
653.61 6.70862
653.613 6.70855
653.615 6.70848
653.614 6.70842
653.611 6.70835
653.614 6.70829
653.615 6.70823
653.614 6.70818
653.611 6.70814
653.614 6.7081
653.617 6.70807
653.621 6.70804
653.61 6.70802
653.621 6.70801
653.617 6.708
653.614 6.70799
653.618 6.70799
653.613 6.70798
653.617 6.70798
653.613 6.70798
653.615 6.70798
653.609 6.70798
653.611 6.70797
653.619 6.70797
653.611 6.70797
653.61 6.70797
653.613 6.70797
653.611 6.70797
653.619 6.70797
653.617 6.70797
653.616 6.70797
653.617 6.70797
653.617 6.70797
653.615 6.70797
653.615 6.70797
653.614 6.70797
653.616 6.70797
653.62 6.70797
653.625 6.70797
653.623 6.70797
653.614 6.70797
653.617 6.70797
653.615 6.70797
653.616 6.70797
653.618 6.70797
653.614 6.70797
653.614 6.70797
653.616 6.70797
653.617 6.70797
653.619 6.70797
653.622 6.70797
653.618 6.70797
653.62 6.70797
653.618 6.70797
653.624 6.70797
653.623 6.70797
653.63 6.70797
653.618 6.70797
653.623 6.70797
653.615 6.70797
653.619 6.70797
653.619 6.70797
653.624 6.70797
653.631 6.70797
653.629 6.70797
653.63 6.70797
653.62 6.70797
653.625 6.70797
653.62 6.70797
653.621 6.70797
653.625 6.70797
653.625 6.70797
653.629 6.70797
653.618 6.70797
653.621 6.70797
653.627 6.70797
653.618 6.70797
653.624 6.70797
653.619 6.70797
653.625 6.70797
653.624 6.70797
653.621 6.70797
653.627 6.70797
653.625 6.70797
653.625 6.70797
653.624 6.70797
653.628 6.70797
653.629 6.70797
653.629 6.70797
653.627 6.70797
653.633 6.70797
653.63 6.70797
653.621 6.70797
653.627 6.70797
653.628 6.70797
653.628 6.70797
653.63 6.70797
653.623 6.70797
653.629 6.70797
653.632 6.70797
653.631 6.70797
653.631 6.70797
653.625 6.70797
653.624 6.70797
653.625 6.70797
653.635 6.70797
653.627 6.70797
653.635 6.70797
653.633 6.70797
653.634 6.70797
653.633 6.70797
653.626 6.70797
653.632 6.70797
653.627 6.70797
653.621 6.70797
653.622 6.70797
653.623 6.70797
653.627 6.70797
653.627 6.70797
653.625 6.70797
653.618 6.70797
653.62 6.70797
653.625 6.70797
653.629 6.70797
653.619 6.70797
653.618 6.70797
653.62 6.70797
653.624 6.70797
653.622 6.70797
653.623 6.70797
653.623 6.70797
653.618 6.70797
653.619 6.70797
653.617 6.70797
653.621 6.70797
653.626 6.70797
653.629 6.70797
653.624 6.70797
653.628 6.70797
653.624 6.70797
653.624 6.70797
653.618 6.70797
653.631 6.70797
653.626 6.70797
653.627 6.70797
653.632 6.70797
653.63 6.70797
653.625 6.70797
653.622 6.70797
653.632 6.70797
653.631 6.70797
653.62 6.70797
653.625 6.70797
653.631 6.70797
653.623 6.70797
653.626 6.70797
653.63 6.70797
653.633 6.70797
653.63 6.70797
653.635 6.70797
653.635 6.70797
653.63 6.70797
653.633 6.70797
653.628 6.70797
653.631 6.70797
653.625 6.70797
653.626 6.70797
653.625 6.70797
653.625 6.70797
653.623 6.70797
653.623 6.70797
653.628 6.70797
653.624 6.70797
653.617 6.70797
653.626 6.70797
653.625 6.70797
653.625 6.70797
653.631 6.70797
653.628 6.70797
653.63 6.70797
653.638 6.70797
653.63 6.70797
653.635 6.70797
653.635 6.70797
653.628 6.70797
653.631 6.70797
653.637 6.70797
653.631 6.70797
653.635 6.70797
653.633 6.70797
653.627 6.70797
653.631 6.70797
653.626 6.70797
653.632 6.70797
653.622 6.70797
653.628 6.70797
653.626 6.70797
653.628 6.70797
653.63 6.70797
653.63 6.70797
653.625 6.70797
653.632 6.70797
653.638 6.70797
653.628 6.70797
653.632 6.70797
653.632 6.70797
653.634 6.70797
653.628 6.70797
653.627 6.70797
653.628 6.70797
653.627 6.70797
653.631 6.70797
653.631 6.70797
653.631 6.70797
653.623 6.70797
653.628 6.70797
653.634 6.70797
653.636 6.70797
653.629 6.70797
653.634 6.70797
653.636 6.70797
653.632 6.70797
653.626 6.70796
653.629 6.70795
653.632 6.70794
653.637 6.70792
653.629 6.70789
653.632 6.70786
653.626 6.70782
653.63 6.70777
653.629 6.70772
653.631 6.70766
653.632 6.70759
653.636 6.70753
653.641 6.70746
653.635 6.70739
653.63 6.70733
653.638 6.70727
653.629 6.70721
653.636 6.70716
653.64 6.70712
653.641 6.70709
653.634 6.70706
653.627 6.70704
653.637 6.70702
653.629 6.70701
653.635 6.707
653.638 6.70699
653.64 6.70698
653.64 6.70698
653.632 6.70698
653.637 6.70698
653.641 6.70698
653.638 6.70698
653.633 6.70697
653.635 6.70697
653.642 6.70697
653.64 6.70697
653.638 6.70697
653.64 6.70697
653.638 6.70697
653.639 6.70697
653.64 6.70697
653.636 6.70697
653.636 6.70697
653.631 6.70697
653.632 6.70697
653.629 6.70697
653.629 6.70697
653.635 6.70697
653.636 6.70697
653.634 6.70697
653.636 6.70697
653.638 6.70697
653.631 6.70697
653.642 6.70697
653.641 6.70697
653.635 6.70697
653.638 6.70697
653.634 6.70697
653.64 6.70697
653.635 6.70697
653.638 6.70697
653.645 6.70697
653.637 6.70697
653.633 6.70697
653.633 6.70697
653.633 6.70697
653.623 6.70697
653.633 6.70697
653.641 6.70697
653.638 6.70697
653.642 6.70697
653.642 6.70697
653.634 6.70697
653.635 6.70697
653.641 6.70697
653.645 6.70697
653.636 6.70697
653.64 6.70697
653.639 6.70697
653.641 6.70697
653.641 6.70697
653.639 6.70697
653.626 6.70697
653.641 6.70697
653.639 6.70697
653.635 6.70697
653.633 6.70697
653.632 6.70697
653.637 6.70697
653.641 6.70697
653.628 6.70697
653.631 6.70697
653.633 6.70697
653.635 6.70697
653.638 6.70697
653.635 6.70697
653.632 6.70697
653.636 6.70697
653.645 6.70697
653.639 6.70697
653.64 6.70697
653.641 6.70697
653.638 6.70697
653.64 6.70697
653.642 6.70697
653.637 6.70697
653.638 6.70697
653.64 6.70697
653.638 6.70697
653.639 6.70697
653.642 6.70697
653.639 6.70697
653.646 6.70697
653.636 6.70697
653.638 6.70697
653.638 6.70697
653.651 6.70697
653.638 6.70697
653.642 6.70697
653.648 6.70697
653.645 6.70697
653.637 6.70697
653.64 6.70697
653.635 6.70697
653.639 6.70697
653.639 6.70697
653.637 6.70697
653.637 6.70697
653.634 6.70697
653.641 6.70697
653.635 6.70697
653.639 6.70697
653.641 6.70697
653.635 6.70697
653.64 6.70697
653.638 6.70697
653.641 6.70697
653.643 6.70697
653.638 6.70697
653.639 6.70697
653.643 6.70697
653.64 6.70697
653.644 6.70697
653.639 6.70697
653.645 6.70697
653.644 6.70697
653.637 6.70697
653.642 6.70697
653.646 6.70697
653.645 6.70697
653.646 6.70697
653.639 6.70697
653.64 6.70697
653.633 6.70697
653.641 6.70697
653.647 6.70697
653.644 6.70697
653.637 6.70697
653.643 6.70697
653.64 6.70697
653.634 6.70697
653.646 6.70697
653.644 6.70697
653.639 6.70697
653.639 6.70697
653.64 6.70697
653.643 6.70697
653.642 6.70697
653.647 6.70697
653.64 6.70697
653.638 6.70697
653.643 6.70697
653.64 6.70697
653.637 6.70697
653.638 6.70697
653.641 6.70697
653.637 6.70697
653.635 6.70697
653.641 6.70697
653.634 6.70697
653.641 6.70697
653.635 6.70697
653.636 6.70697
653.64 6.70697
653.639 6.70697
653.638 6.70697
653.641 6.70697
653.634 6.70697
653.639 6.70697
653.644 6.70697
653.634 6.70697
653.632 6.70697
653.642 6.70697
653.64 6.70697
653.637 6.70697
653.643 6.70697
653.64 6.70697
653.642 6.70697
653.636 6.70697
653.631 6.70697
653.642 6.70697
653.643 6.70697
653.638 6.70697
653.636 6.70697
653.643 6.70697
653.634 6.70697
653.637 6.70697
653.64 6.70697
653.641 6.70697
653.638 6.70697
653.633 6.70697
653.643 6.70697
653.635 6.70697
653.628 6.70697
653.63 6.70697
653.632 6.70697
653.631 6.70697
653.63 6.70697
653.635 6.70697
653.629 6.70697
653.635 6.70697
653.635 6.70697
653.636 6.70697
653.637 6.70697
653.635 6.70697
653.634 6.70697
653.638 6.70697
653.636 6.70697
653.638 6.70697
653.639 6.70697
653.638 6.70697
653.635 6.70697
653.633 6.70697
653.636 6.70697
653.634 6.70697
653.632 6.70697
653.629 6.70697
653.63 6.70697
653.64 6.70697
653.642 6.70697
653.636 6.70697
653.64 6.70697
653.639 6.70697
653.64 6.70697
653.632 6.70697
653.632 6.70697
653.643 6.70697
653.638 6.70697
653.644 6.70697
653.64 6.70697
653.637 6.70697
653.64 6.70697
653.644 6.70697
653.634 6.70697
653.636 6.70697
653.636 6.70697
653.64 6.70697
653.638 6.70697
653.63 6.70697
653.634 6.70697
653.638 6.70697
653.637 6.70697
653.641 6.70697
653.633 6.70697
653.64 6.70697
653.639 6.70697
653.634 6.70697
653.633 6.70697
653.642 6.70697
653.64 6.70697
653.638 6.70697
653.639 6.70697
653.636 6.70697
653.629 6.70697
653.645 6.70697
653.636 6.70697
653.638 6.70697
653.645 6.70697
653.643 6.70697
653.643 6.70697
653.635 6.70697
653.638 6.70697
653.637 6.70697
653.641 6.70697
653.643 6.70697
653.64 6.70697
653.641 6.70697
653.643 6.70697
653.638 6.70697
653.638 6.70697
653.64 6.70697
653.641 6.70697
653.638 6.70697
653.639 6.70697
653.638 6.70697
653.638 6.70697
653.643 6.70697
653.64 6.70697
653.641 6.70697
653.638 6.70697
653.634 6.70697
653.646 6.70697
653.632 6.70697
653.633 6.70697
653.633 6.70697
653.633 6.70697
653.631 6.70697
653.633 6.70697
653.631 6.70697
653.634 6.70697
653.637 6.70697
653.64 6.70697
653.636 6.70697
##END
##TITLE=TEST
##JCAMP-DX=4.24
##DATA TYPE=TGA
##ORIGIN=
##OWNER=
##XUNITS=t [s]
##YUNITS=Value [mg]
##FIRSTX=0
##LASTX=2250
##FIRSTY=2.304
##LASTY=12.8038
##NPOINTS=2251
##$cheminfoFlavor=weightversustime
##PEAK TABLE=(XY..XY)
0 12.8009
1 12.8008
2 12.8007
3 12.8005
4 12.8004
5 12.8003
6 12.8002
7 12.8002
8 12.8003
9 12.8004
10 12.8006
11 12.8008
12 12.8012
13 12.8015
14 12.8019
15 12.8023
16 12.8026
17 12.803
18 12.8033
19 12.8035
20 12.8036
21 12.8037
22 12.8038
23 12.8038
24 12.8038
25 12.8037
26 12.8036
27 12.8035
28 12.8033
29 12.8032
30 12.803
31 12.8029
32 12.8028
33 12.8027
34 12.8025
35 12.8024
36 12.8024
37 12.8023
38 12.8022
39 12.8021
40 12.8021
41 12.802
42 12.802
43 12.8019
44 12.8019
45 12.8019
46 12.8018
47 12.8018
48 12.8017
49 12.8017
50 12.8017
51 12.8016
52 12.8016
53 12.8015
54 12.8015
55 12.8014
56 12.8013
57 12.8013
58 12.8012
59 12.8012
60 12.8011
61 12.801
62 12.801
63 12.8009
64 12.8008
65 12.8008
66 12.8007
67 12.8007
68 12.8006
69 12.8006
70 12.8005
71 12.8005
72 12.8004
73 12.8004
74 12.8003
75 12.8003
76 12.8002
77 12.8002
78 12.8001
79 12.8
80 12.8
81 12.7999
82 12.7998
83 12.7998
84 12.7997
85 12.7996
86 12.7995
87 12.7994
88 12.7993
89 12.7993
90 12.7992
91 12.7991
92 12.799
93 12.7989
94 12.7988
95 12.7987
96 12.7985
97 12.7984
98 12.7983
99 12.7982
100 12.7981
101 12.7979
102 12.7978
103 12.7977
104 12.7976
105 12.7974
106 12.7973
107 12.7971
108 12.797
109 12.7969
110 12.7967
111 12.7966
112 12.7965
113 12.7963
114 12.7962
115 12.796
116 12.7959
117 12.7957
118 12.7956
119 12.7955
120 12.7953
121 12.7951
122 12.795
123 12.7948
124 12.7946
125 12.7945
126 12.7943
127 12.7941
128 12.7939
129 12.7938
130 12.7936
131 12.7934
132 12.7932
133 12.793
134 12.7927
135 12.7925
136 12.7923
137 12.7921
138 12.7919
139 12.7917
140 12.7915
141 12.7913
142 12.7911
143 12.7909
144 12.7907
145 12.7904
146 12.7902
147 12.79
148 12.7898
149 12.7895
150 12.7893
151 12.789
152 12.7887
153 12.7884
154 12.7882
155 12.7879
156 12.7876
157 12.7873
158 12.7871
159 12.7868
160 12.7865
161 12.7862
162 12.786
163 12.7857
164 12.7854
165 12.7852
166 12.7849
167 12.7846
168 12.7844
169 12.7841
170 12.7839
171 12.7836
172 12.7833
173 12.783
174 12.7828
175 12.7825
176 12.7821
177 12.7818
178 12.7815
179 12.7812
180 12.7808
181 12.7805
182 12.7801
183 12.7798
184 12.7794
185 12.779
186 12.7786
187 12.7783
188 12.7779
189 12.7775
190 12.7771
191 12.7767
192 12.7763
193 12.7759
194 12.7755
195 12.7751
196 12.7747
197 12.7743
198 12.7738
199 12.7734
200 12.773
201 12.7726
202 12.7722
203 12.7717
204 12.7713
205 12.7708
206 12.7704
207 12.7699
208 12.7695
209 12.769
210 12.7685
211 12.768
212 12.7675
213 12.767
214 12.7665
215 12.7659
216 12.7654
217 12.7648
218 12.7642
219 12.7635
220 12.7629
221 12.7622
222 12.7614
223 12.7606
224 12.7598
225 12.7589
226 12.758
227 12.757
228 12.756
229 12.7549
230 12.7538
231 12.7527
232 12.7516
233 12.7504
234 12.7492
235 12.748
236 12.7467
237 12.7455
238 12.7443
239 12.743
240 12.7418
241 12.7406
242 12.7394
243 12.7381
244 12.7369
245 12.7357
246 12.7345
247 12.7333
248 12.7321
249 12.731
250 12.7298
251 12.7286
252 12.7275
253 12.7264
254 12.7252
255 12.7241
256 12.723
257 12.7219
258 12.7208
259 12.7196
260 12.7185
261 12.7174
262 12.7163
263 12.7151
264 12.714
265 12.7128
266 12.7116
267 12.7105
268 12.7093
269 12.7081
270 12.7069
271 12.7057
272 12.7045
273 12.7033
274 12.7021
275 12.7009
276 12.6996
277 12.6984
278 12.6972
279 12.6959
280 12.6947
281 12.6934
282 12.6921
283 12.6908
284 12.6896
285 12.6883
286 12.6869
287 12.6856
288 12.6843
289 12.683
290 12.6816
291 12.6802
292 12.6788
293 12.6774
294 12.676
295 12.6746
296 12.6731
297 12.6716
298 12.6701
299 12.6686
300 12.667
301 12.6654
302 12.6638
303 12.6621
304 12.6605
305 12.6588
306 12.657
307 12.6552
308 12.6534
309 12.6516
310 12.6497
311 12.6478
312 12.6459
313 12.644
314 12.642
315 12.6399
316 12.6379
317 12.6358
318 12.6337
319 12.6316
320 12.6294
321 12.6272
322 12.625
323 12.6227
324 12.6204
325 12.6181
326 12.6157
327 12.6133
328 12.6109
329 12.6085
330 12.606
331 12.6035
332 12.601
333 12.5984
334 12.5958
335 12.5932
336 12.5906
337 12.5879
338 12.5852
339 12.5824
340 12.5796
341 12.5768
342 12.574
343 12.5711
344 12.5682
345 12.5653
346 12.5624
347 12.5594
348 12.5564
349 12.5534
350 12.5504
351 12.5474
352 12.5443
353 12.5413
354 12.5382
355 12.5352
356 12.5321
357 12.5291
358 12.526
359 12.523
360 12.5199
361 12.5169
362 12.5139
363 12.5109
364 12.5079
365 12.505
366 12.502
367 12.4991
368 12.4962
369 12.4934
370 12.4905
371 12.4877
372 12.4849
373 12.4821
374 12.4794
375 12.4767
376 12.474
377 12.4713
378 12.4687
379 12.4661
380 12.4635
381 12.4609
382 12.4583
383 12.4558
384 12.4532
385 12.4507
386 12.4482
387 12.4457
388 12.4432
389 12.4407
390 12.4382
391 12.4357
392 12.4332
393 12.4308
394 12.4283
395 12.4258
396 12.4234
397 12.4209
398 12.4185
399 12.416
400 12.4136
401 12.4112
402 12.4087
403 12.4063
404 12.4039
405 12.4014
406 12.399
407 12.3966
408 12.3941
409 12.3917
410 12.3893
411 12.3868
412 12.3844
413 12.3819
414 12.3795
415 12.377
416 12.3746
417 12.3721
418 12.3697
419 12.3672
420 12.3647
421 12.3622
422 12.3598
423 12.3573
424 12.3548
425 12.3523
426 12.3498
427 12.3473
428 12.3448
429 12.3423
430 12.3397
431 12.3372
432 12.3346
433 12.3321
434 12.3295
435 12.3269
436 12.3243
437 12.3217
438 12.3191
439 12.3165
440 12.3139
441 12.3113
442 12.3086
443 12.306
444 12.3033
445 12.3007
446 12.298
447 12.2953
448 12.2926
449 12.2899
450 12.2872
451 12.2845
452 12.2818
453 12.279
454 12.2763
455 12.2735
456 12.2707
457 12.268
458 12.2652
459 12.2624
460 12.2595
461 12.2567
462 12.2539
463 12.251
464 12.2482
465 12.2453
466 12.2424
467 12.2395
468 12.2366
469 12.2337
470 12.2308
471 12.2278
472 12.2249
473 12.2219
474 12.2189
475 12.2159
476 12.2129
477 12.2099
478 12.2069
479 12.2039
480 12.2008
481 12.1978
482 12.1947
483 12.1916
484 12.1886
485 12.1855
486 12.1824
487 12.1793
488 12.1762
489 12.1731
490 12.1699
491 12.1668
492 12.1637
493 12.1605
494 12.1574
495 12.1542
496 12.151
497 12.1479
498 12.1447
499 12.1415
500 12.1383
501 12.1351
502 12.1319
503 12.1286
504 12.1254
505 12.1222
506 12.119
507 12.1157
508 12.1125
509 12.1092
510 12.106
511 12.1027
512 12.0995
513 12.0962
514 12.093
515 12.0897
516 12.0864
517 12.0832
518 12.0799
519 12.0766
520 12.0734
521 12.0701
522 12.0668
523 12.0636
524 12.0603
525 12.057
526 12.0538
527 12.0505
528 12.0472
529 12.044
530 12.0407
531 12.0374
532 12.0341
533 12.0308
534 12.0275
535 12.0243
536 12.0209
537 12.0176
538 12.0143
539 12.011
540 12.0077
541 12.0043
542 12.001
543 11.9977
544 11.9943
545 11.991
546 11.9876
547 11.9842
548 11.9809
549 11.9775
550 11.9741
551 11.9707
552 11.9673
553 11.9639
554 11.9605
555 11.957
556 11.9536
557 11.9501
558 11.9466
559 11.9431
560 11.9396
561 11.9361
562 11.9325
563 11.929
564 11.9254
565 11.9218
566 11.9181
567 11.9145
568 11.9108
569 11.9071
570 11.9034
571 11.8997
572 11.8959
573 11.8921
574 11.8883
575 11.8844
576 11.8805
577 11.8766
578 11.8727
579 11.8687
580 11.8647
581 11.8606
582 11.8565
583 11.8523
584 11.8481
585 11.8439
586 11.8396
587 11.8352
588 11.8308
589 11.8264
590 11.8218
591 11.8172
592 11.8126
593 11.8079
594 11.8031
595 11.7982
596 11.7933
597 11.7883
598 11.7832
599 11.778
600 11.7727
601 11.7673
602 11.7619
603 11.7563
604 11.7506
605 11.7448
606 11.7389
607 11.7329
608 11.7268
609 11.7205
610 11.7141
611 11.7076
612 11.701
613 11.6942
614 11.6872
615 11.6801
616 11.6728
617 11.6654
618 11.6578
619 11.65
620 11.6421
621 11.6339
622 11.6256
623 11.617
624 11.6083
625 11.5993
626 11.5901
627 11.5806
628 11.5709
629 11.561
630 11.5508
631 11.5403
632 11.5296
633 11.5186
634 11.5072
635 11.4956
636 11.4836
637 11.4714
638 11.4588
639 11.4458
640 11.4325
641 11.4189
642 11.4048
643 11.3904
644 11.3755
645 11.3603
646 11.3446
647 11.3285
648 11.312
649 11.295
650 11.2775
651 11.2596
652 11.2411
653 11.2222
654 11.2026
655 11.1826
656 11.162
657 11.1409
658 11.1191
659 11.0967
660 11.0738
661 11.0503
662 11.026
663 11.0012
664 10.9757
665 10.9496
666 10.9227
667 10.8952
668 10.867
669 10.8381
670 10.8084
671 10.7781
672 10.7471
673 10.7153
674 10.6827
675 10.6495
676 10.6155
677 10.5808
678 10.5452
679 10.5091
680 10.4721
681 10.4345
682 10.396
683 10.3569
684 10.3172
685 10.2767
686 10.2354
687 10.1936
688 10.1511
689 10.108
690 10.0642
691 10.0198
692 9.97486
693 9.92937
694 9.88325
695 9.83667
696 9.78961
697 9.74207
698 9.69399
699 9.64557
700 9.59674
701 9.54755
702 9.49795
703 9.44809
704 9.39794
705 9.34752
706 9.29684
707 9.24599
708 9.19497
709 9.14379
710 9.09247
711 9.04111
712 8.9897
713 8.93824
714 8.88678
715 8.83538
716 8.78402
717 8.73273
718 8.68156
719 8.63054
720 8.57967
721 8.52896
722 8.47848
723 8.42824
724 8.37824
725 8.32849
726 8.27909
727 8.22999
728 8.18121
729 8.13277
730 8.08475
731 8.0371
732 7.98983
733 7.94294
734 7.89653
735 7.85048
736 7.80484
737 7.75957
738 7.71476
739 7.67029
740 7.62617
741 7.5824
742 7.53902
743 7.49591
744 7.4531
745 7.41058
746 7.36839
747 7.32642
748 7.28471
749 7.24324
750 7.20207
751 7.16113
752 7.12042
753 7.07996
754 7.03981
755 6.99989
756 6.96023
757 6.92085
758 6.88179
759 6.84299
760 6.80447
761 6.76624
762 6.72836
763 6.69076
764 6.65346
765 6.61645
766 6.57979
767 6.54342
768 6.50735
769 6.47157
770 6.43616
771 6.40101
772 6.36617
773 6.33161
774 6.2974
775 6.26344
776 6.22978
777 6.1964
778 6.16335
779 6.13057
780 6.09806
781 6.06584
782 6.03393
783 6.00228
784 5.97089
785 5.93977
786 5.90895
787 5.87838
788 5.84805
789 5.81798
790 5.7882
791 5.75864
792 5.72932
793 5.70025
794 5.67148
795 5.64293
796 5.61463
797 5.58658
798 5.55883
799 5.53133
800 5.50409
801 5.47711
802 5.45047
803 5.42407
804 5.39796
805 5.37212
806 5.34663
807 5.3214
808 5.29646
809 5.27182
810 5.24755
811 5.22355
812 5.19987
813 5.1765
814 5.15352
815 5.13084
816 5.1085
817 5.0865
818 5.06493
819 5.04369
820 5.02282
821 5.00231
822 4.98225
823 4.96254
824 4.94321
825 4.92428
826 4.90581
827 4.88772
828 4.87003
829 4.85275
830 4.83595
831 4.81954
832 4.80354
833 4.78795
834 4.77287
835 4.75817
836 4.74389
837 4.73002
838 4.71666
839 4.70369
840 4.69114
841 4.67901
842 4.66737
843 4.65612
844 4.64526
845 4.63482
846 4.62484
847 4.61521
848 4.60597
849 4.59711
850 4.58868
851 4.58057
852 4.57281
853 4.56539
854 4.55836
855 4.5516
856 4.54516
857 4.53901
858 4.5332
859 4.52762
860 4.52232
861 4.51726
862 4.51249
863 4.50793
864 4.50358
865 4.49944
866 4.49554
867 4.4918
868 4.48825
869 4.48486
870 4.48167
871 4.47861
872 4.47569
873 4.47291
874 4.47028
875 4.46776
876 4.46534
877 4.46304
878 4.46086
879 4.45875
880 4.45674
881 4.45481
882 4.45297
883 4.4512
884 4.4495
885 4.44787
886 4.44631
887 4.44481
888 4.44336
889 4.44197
890 4.44064
891 4.43935
892 4.43811
893 4.43692
894 4.43578
895 4.43467
896 4.43361
897 4.43258
898 4.4316
899 4.43064
900 4.42972
901 4.42883
902 4.42797
903 4.42714
904 4.42633
905 4.42556
906 4.42481
907 4.42409
908 4.42339
909 4.42271
910 4.42206
911 4.42143
912 4.42083
913 4.42024
914 4.41966
915 4.4191
916 4.41855
917 4.41802
918 4.41749
919 4.41697
920 4.41645
921 4.41594
922 4.41543
923 4.41492
924 4.41441
925 4.41391
926 4.41341
927 4.41292
928 4.41243
929 4.41195
930 4.41148
931 4.411
932 4.41054
933 4.41007
934 4.40961
935 4.40916
936 4.4087
937 4.40825
938 4.40781
939 4.40736
940 4.40691
941 4.40647
942 4.40603
943 4.40559
944 4.40515
945 4.40471
946 4.40427
947 4.40383
948 4.40339
949 4.40295
950 4.40251
951 4.40208
952 4.40164
953 4.4012
954 4.40076
955 4.40032
956 4.39988
957 4.39944
958 4.399
959 4.39856
960 4.39813
961 4.39769
962 4.39725
963 4.39681
964 4.39637
965 4.39593
966 4.3955
967 4.39506
968 4.39462
969 4.39418
970 4.39374
971 4.3933
972 4.39285
973 4.39241
974 4.39197
975 4.39153
976 4.39108
977 4.39064
978 4.39019
979 4.38975
980 4.38931
981 4.38886
982 4.38841
983 4.38797
984 4.38752
985 4.38707
986 4.38663
987 4.38618
988 4.38573
989 4.38527
990 4.38482
991 4.38436
992 4.3839
993 4.38344
994 4.38298
995 4.38251
996 4.38205
997 4.38159
998 4.38112
999 4.38066
1000 4.38021
1001 4.37975
1002 4.3793
1003 4.37886
1004 4.37842
1005 4.37798
1006 4.37754
1007 4.37711
1008 4.37667
1009 4.37624
1010 4.3758
1011 4.37535
1012 4.37491
1013 4.37445
1014 4.37399
1015 4.37352
1016 4.37305
1017 4.37256
1018 4.37208
1019 4.37159
1020 4.3711
1021 4.3706
1022 4.37011
1023 4.36962
1024 4.36913
1025 4.36863
1026 4.36814
1027 4.36765
1028 4.36716
1029 4.36667
1030 4.36619
1031 4.3657
1032 4.36522
1033 4.36474
1034 4.36426
1035 4.36378
1036 4.36331
1037 4.36283
1038 4.36236
1039 4.36189
1040 4.36141
1041 4.36094
1042 4.36047
1043 4.36
1044 4.35952
1045 4.35905
1046 4.35856
1047 4.35808
1048 4.35759
1049 4.3571
1050 4.35661
1051 4.35612
1052 4.35562
1053 4.35512
1054 4.35462
1055 4.35412
1056 4.35362
1057 4.35311
1058 4.35261
1059 4.35211
1060 4.35161
1061 4.35111
1062 4.3506
1063 4.3501
1064 4.3496
1065 4.3491
1066 4.3486
1067 4.3481
1068 4.34761
1069 4.34711
1070 4.34661
1071 4.34611
1072 4.34561
1073 4.34512
1074 4.34461
1075 4.34411
1076 4.34361
1077 4.3431
1078 4.34259
1079 4.34208
1080 4.34157
1081 4.34105
1082 4.34053
1083 4.34001
1084 4.33948
1085 4.33895
1086 4.33843
1087 4.3379
1088 4.33737
1089 4.33684
1090 4.33632
1091 4.3358
1092 4.33528
1093 4.33477
1094 4.33425
1095 4.33374
1096 4.33323
1097 4.33273
1098 4.33222
1099 4.33171
1100 4.3312
1101 4.33069
1102 4.33018
1103 4.32965
1104 4.32912
1105 4.32859
1106 4.32805
1107 4.32751
1108 4.32697
1109 4.32642
1110 4.32588
1111 4.32533
1112 4.32478
1113 4.32423
1114 4.32368
1115 4.32313
1116 4.32259
1117 4.32204
1118 4.3215
1119 4.32097
1120 4.32044
1121 4.3199
1122 4.31937
1123 4.31883
1124 4.3183
1125 4.31776
1126 4.31723
1127 4.3167
1128 4.31616
1129 4.31562
1130 4.31508
1131 4.31453
1132 4.31399
1133 4.31344
1134 4.31289
1135 4.31234
1136 4.31179
1137 4.31123
1138 4.31068
1139 4.31013
1140 4.30957
1141 4.30902
1142 4.30846
1143 4.3079
1144 4.30734
1145 4.30678
1146 4.30621
1147 4.30565
1148 4.30508
1149 4.3045
1150 4.30393
1151 4.30336
1152 4.30278
1153 4.30221
1154 4.30164
1155 4.30106
1156 4.30048
1157 4.2999
1158 4.29932
1159 4.29874
1160 4.29816
1161 4.29758
1162 4.297
1163 4.29643
1164 4.29586
1165 4.29528
1166 4.29471
1167 4.29412
1168 4.29354
1169 4.29296
1170 4.29238
1171 4.2918
1172 4.29122
1173 4.29064
1174 4.29006
1175 4.28948
1176 4.2889
1177 4.28831
1178 4.28772
1179 4.28714
1180 4.28655
1181 4.28597
1182 4.28539
1183 4.28481
1184 4.28424
1185 4.28366
1186 4.28309
1187 4.28251
1188 4.28192
1189 4.28134
1190 4.28075
1191 4.28017
1192 4.27959
1193 4.27901
1194 4.27843
1195 4.27784
1196 4.27726
1197 4.27667
1198 4.27608
1199 4.27549
1200 4.27489
1201 4.27428
1202 4.27368
1203 4.27307
1204 4.27246
1205 4.27185
1206 4.27123
1207 4.27062
1208 4.27001
1209 4.2694
1210 4.26879
1211 4.2682
1212 4.26761
1213 4.26703
1214 4.26645
1215 4.26589
1216 4.26532
1217 4.26476
1218 4.26421
1219 4.26365
1220 4.2631
1221 4.26255
1222 4.26201
1223 4.26147
1224 4.26093
1225 4.2604
1226 4.25988
1227 4.25936
1228 4.25884
1229 4.25833
1230 4.25782
1231 4.25731
1232 4.2568
1233 4.2563
1234 4.25579
1235 4.25528
1236 4.25477
1237 4.25425
1238 4.25373
1239 4.25321
1240 4.25268
1241 4.25215
1242 4.25161
1243 4.25108
1244 4.25055
1245 4.25002
1246 4.24949
1247 4.24897
1248 4.24844
1249 4.24792
1250 4.2474
1251 4.24688
1252 4.24636
1253 4.24584
1254 4.24532
1255 4.24481
1256 4.24429
1257 4.24378
1258 4.24327
1259 4.24275
1260 4.24224
1261 4.24174
1262 4.24123
1263 4.24073
1264 4.24022
1265 4.23972
1266 4.23923
1267 4.23873
1268 4.23823
1269 4.23774
1270 4.23725
1271 4.23676
1272 4.23627
1273 4.2358
1274 4.23533
1275 4.23486
1276 4.23441
1277 4.23397
1278 4.23353
1279 4.2331
1280 4.23268
1281 4.23227
1282 4.23185
1283 4.23144
1284 4.23103
1285 4.23062
1286 4.23021
1287 4.2298
1288 4.22938
1289 4.22895
1290 4.22852
1291 4.22807
1292 4.22762
1293 4.22716
1294 4.2267
1295 4.22623
1296 4.22577
1297 4.2253
1298 4.22483
1299 4.22436
1300 4.2239
1301 4.22343
1302 4.22297
1303 4.22252
1304 4.22207
1305 4.22163
1306 4.22119
1307 4.22075
1308 4.22031
1309 4.21988
1310 4.21944
1311 4.21899
1312 4.21854
1313 4.21809
1314 4.21764
1315 4.21718
1316 4.21671
1317 4.21625
1318 4.21578
1319 4.21532
1320 4.21486
1321 4.2144
1322 4.21394
1323 4.21348
1324 4.21303
1325 4.21258
1326 4.21213
1327 4.21168
1328 4.21123
1329 4.21079
1330 4.21034
1331 4.2099
1332 4.20945
1333 4.209
1334 4.20855
1335 4.2081
1336 4.20765
1337 4.20719
1338 4.20674
1339 4.20629
1340 4.20583
1341 4.20538
1342 4.20492
1343 4.20446
1344 4.204
1345 4.20354
1346 4.20308
1347 4.20261
1348 4.20214
1349 4.20168
1350 4.20121
1351 4.20074
1352 4.20027
1353 4.19979
1354 4.19929
1355 4.19879
1356 4.19828
1357 4.19777
1358 4.19725
1359 4.19672
1360 4.19617
1361 4.19557
1362 4.19491
1363 4.19414
1364 4.19324
1365 4.19219
1366 4.19086
1367 4.18929
1368 4.18739
1369 4.1851
1370 4.18221
1371 4.17874
1372 4.17461
1373 4.16973
1374 4.16403
1375 4.15756
1376 4.15031
1377 4.1423
1378 4.13343
1379 4.12385
1380 4.11351
1381 4.10249
1382 4.09076
1383 4.07855
1384 4.06586
1385 4.05275
1386 4.03926
1387 4.02551
1388 4.01147
1389 3.99718
1390 3.98263
1391 3.96795
1392 3.95311
1393 3.93812
1394 3.92299
1395 3.90779
1396 3.89251
1397 3.87714
1398 3.8617
1399 3.84623
1400 3.83072
1401 3.81516
1402 3.79956
1403 3.78395
1404 3.76831
1405 3.75266
1406 3.73698
1407 3.72131
1408 3.70562
1409 3.68993
1410 3.67424
1411 3.65856
1412 3.64288
1413 3.6272
1414 3.61155
1415 3.59591
1416 3.58028
1417 3.56467
1418 3.54909
1419 3.53353
1420 3.51799
1421 3.50248
1422 3.487
1423 3.47155
1424 3.45613
1425 3.44075
1426 3.4254
1427 3.4101
1428 3.39482
1429 3.37959
1430 3.36442
1431 3.34928
1432 3.33419
1433 3.31915
1434 3.30416
1435 3.28923
1436 3.27435
1437 3.25951
1438 3.24475
1439 3.23004
1440 3.21539
1441 3.20078
1442 3.18626
1443 3.17178
1444 3.15735
1445 3.14299
1446 3.1287
1447 3.11446
1448 3.10028
1449 3.08615
1450 3.0721
1451 3.05811
1452 3.04417
1453 3.03029
1454 3.01649
1455 3.00275
1456 2.98907
1457 2.97545
1458 2.9619
1459 2.94842
1460 2.935
1461 2.92164
1462 2.90836
1463 2.89514
1464 2.88198
1465 2.86889
1466 2.85588
1467 2.84293
1468 2.83005
1469 2.81723
1470 2.8045
1471 2.79183
1472 2.77923
1473 2.76671
1474 2.75428
1475 2.74192
1476 2.72963
1477 2.71743
1478 2.70532
1479 2.69329
1480 2.68134
1481 2.66948
1482 2.65772
1483 2.64605
1484 2.63447
1485 2.62298
1486 2.61162
1487 2.60035
1488 2.58919
1489 2.57813
1490 2.56722
1491 2.55642
1492 2.54574
1493 2.53519
1494 2.5248
1495 2.51455
1496 2.50444
1497 2.49447
1498 2.4847
1499 2.47508
1500 2.46563
1501 2.45635
1502 2.44729
1503 2.43841
1504 2.42974
1505 2.42127
1506 2.41306
1507 2.40508
1508 2.39734
1509 2.38986
1510 2.38271
1511 2.37584
1512 2.36929
1513 2.36306
1514 2.35725
1515 2.35179
1516 2.34671
1517 2.34202
1518 2.33779
1519 2.33393
1520 2.33046
1521 2.32738
1522 2.32472
1523 2.32237
1524 2.32036
1525 2.31864
1526 2.31724
1527 2.31603
1528 2.31502
1529 2.31419
1530 2.31353
1531 2.31294
1532 2.31245
1533 2.31204
1534 2.31171
1535 2.31139
1536 2.3111
1537 2.31083
1538 2.31059
1539 2.31035
1540 2.31011
1541 2.30988
1542 2.30966
1543 2.30945
1544 2.30925
1545 2.30906
1546 2.30889
1547 2.30873
1548 2.30859
1549 2.30846
1550 2.30836
1551 2.30827
1552 2.3082
1553 2.30814
1554 2.30808
1555 2.30804
1556 2.30799
1557 2.30794
1558 2.30789
1559 2.30782
1560 2.30775
1561 2.30768
1562 2.30761
1563 2.30753
1564 2.30746
1565 2.30738
1566 2.30731
1567 2.30724
1568 2.30718
1569 2.30713
1570 2.30709
1571 2.30706
1572 2.30704
1573 2.30703
1574 2.30702
1575 2.30701
1576 2.30701
1577 2.30701
1578 2.30701
1579 2.30701
1580 2.307
1581 2.307
1582 2.307
1583 2.307
1584 2.30699
1585 2.30698
1586 2.30695
1587 2.30691
1588 2.30687
1589 2.30682
1590 2.30676
1591 2.30669
1592 2.30662
1593 2.30655
1594 2.30647
1595 2.3064
1596 2.30633
1597 2.30626
1598 2.3062
1599 2.30615
1600 2.30611
1601 2.30607
1602 2.30605
1603 2.30603
1604 2.30602
1605 2.30601
1606 2.30601
1607 2.30601
1608 2.30601
1609 2.30601
1610 2.30601
1611 2.306
1612 2.306
1613 2.306
1614 2.306
1615 2.306
1616 2.306
1617 2.306
1618 2.306
1619 2.306
1620 2.306
1621 2.306
1622 2.306
1623 2.306
1624 2.306
1625 2.306
1626 2.306
1627 2.306
1628 2.306
1629 2.306
1630 2.306
1631 2.306
1632 2.306
1633 2.306
1634 2.306
1635 2.306
1636 2.306
1637 2.306
1638 2.306
1639 2.306
1640 2.306
1641 2.306
1642 2.306
1643 2.306
1644 2.306
1645 2.306
1646 2.306
1647 2.306
1648 2.306
1649 2.306
1650 2.306
1651 2.306
1652 2.306
1653 2.306
1654 2.306
1655 2.306
1656 2.306
1657 2.306
1658 2.306
1659 2.306
1660 2.306
1661 2.306
1662 2.306
1663 2.306
1664 2.306
1665 2.306
1666 2.306
1667 2.306
1668 2.306
1669 2.306
1670 2.306
1671 2.306
1672 2.306
1673 2.306
1674 2.306
1675 2.306
1676 2.306
1677 2.306
1678 2.306
1679 2.306
1680 2.306
1681 2.306
1682 2.306
1683 2.306
1684 2.306
1685 2.306
1686 2.306
1687 2.306
1688 2.306
1689 2.306
1690 2.306
1691 2.306
1692 2.306
1693 2.306
1694 2.306
1695 2.306
1696 2.306
1697 2.306
1698 2.306
1699 2.306
1700 2.306
1701 2.306
1702 2.306
1703 2.306
1704 2.306
1705 2.306
1706 2.306
1707 2.30599
1708 2.30598
1709 2.30596
1710 2.30594
1711 2.3059
1712 2.30587
1713 2.30582
1714 2.30577
1715 2.30571
1716 2.30565
1717 2.30558
1718 2.30551
1719 2.30545
1720 2.30538
1721 2.30532
1722 2.30526
1723 2.30521
1724 2.30517
1725 2.30513
1726 2.3051
1727 2.30507
1728 2.30505
1729 2.30504
1730 2.30503
1731 2.30502
1732 2.30502
1733 2.30501
1734 2.30501
1735 2.30501
1736 2.30501
1737 2.30501
1738 2.305
1739 2.305
1740 2.305
1741 2.305
1742 2.305
1743 2.305
1744 2.305
1745 2.305
1746 2.305
1747 2.305
1748 2.305
1749 2.305
1750 2.305
1751 2.305
1752 2.305
1753 2.305
1754 2.305
1755 2.305
1756 2.305
1757 2.305
1758 2.305
1759 2.305
1760 2.305
1761 2.305
1762 2.305
1763 2.305
1764 2.305
1765 2.305
1766 2.305
1767 2.305
1768 2.305
1769 2.305
1770 2.305
1771 2.305
1772 2.305
1773 2.305
1774 2.305
1775 2.305
1776 2.305
1777 2.305
1778 2.305
1779 2.305
1780 2.305
1781 2.305
1782 2.305
1783 2.305
1784 2.305
1785 2.305
1786 2.305
1787 2.305
1788 2.305
1789 2.305
1790 2.305
1791 2.305
1792 2.305
1793 2.305
1794 2.305
1795 2.305
1796 2.305
1797 2.305
1798 2.305
1799 2.305
1800 2.305
1801 2.305
1802 2.305
1803 2.305
1804 2.305
1805 2.305
1806 2.305
1807 2.305
1808 2.305
1809 2.305
1810 2.305
1811 2.305
1812 2.305
1813 2.305
1814 2.305
1815 2.305
1816 2.305
1817 2.305
1818 2.305
1819 2.305
1820 2.305
1821 2.305
1822 2.305
1823 2.305
1824 2.305
1825 2.305
1826 2.305
1827 2.305
1828 2.305
1829 2.305
1830 2.305
1831 2.305
1832 2.305
1833 2.305
1834 2.305
1835 2.305
1836 2.305
1837 2.305
1838 2.305
1839 2.305
1840 2.305
1841 2.305
1842 2.305
1843 2.305
1844 2.305
1845 2.305
1846 2.305
1847 2.305
1848 2.305
1849 2.305
1850 2.305
1851 2.305
1852 2.305
1853 2.305
1854 2.305
1855 2.305
1856 2.305
1857 2.305
1858 2.305
1859 2.305
1860 2.305
1861 2.305
1862 2.305
1863 2.305
1864 2.305
1865 2.305
1866 2.305
1867 2.305
1868 2.305
1869 2.305
1870 2.305
1871 2.305
1872 2.305
1873 2.305
1874 2.305
1875 2.305
1876 2.305
1877 2.305
1878 2.305
1879 2.305
1880 2.305
1881 2.305
1882 2.305
1883 2.305
1884 2.305
1885 2.305
1886 2.305
1887 2.305
1888 2.305
1889 2.305
1890 2.305
1891 2.305
1892 2.305
1893 2.305
1894 2.305
1895 2.305
1896 2.305
1897 2.305
1898 2.305
1899 2.305
1900 2.305
1901 2.305
1902 2.305
1903 2.305
1904 2.305
1905 2.305
1906 2.305
1907 2.305
1908 2.305
1909 2.305
1910 2.305
1911 2.305
1912 2.305
1913 2.305
1914 2.305
1915 2.305
1916 2.305
1917 2.305
1918 2.305
1919 2.305
1920 2.305
1921 2.305
1922 2.305
1923 2.305
1924 2.305
1925 2.305
1926 2.305
1927 2.305
1928 2.305
1929 2.305
1930 2.305
1931 2.305
1932 2.305
1933 2.305
1934 2.305
1935 2.305
1936 2.305
1937 2.305
1938 2.30499
1939 2.30498
1940 2.30497
1941 2.30495
1942 2.30492
1943 2.30489
1944 2.30485
1945 2.3048
1946 2.30475
1947 2.30469
1948 2.30462
1949 2.30456
1950 2.30449
1951 2.30442
1952 2.30436
1953 2.3043
1954 2.30424
1955 2.30419
1956 2.30415
1957 2.30412
1958 2.30409
1959 2.30407
1960 2.30405
1961 2.30404
1962 2.30403
1963 2.30402
1964 2.30401
1965 2.30401
1966 2.30401
1967 2.30401
1968 2.30401
1969 2.30401
1970 2.304
1971 2.304
1972 2.304
1973 2.304
1974 2.304
1975 2.304
1976 2.304
1977 2.304
1978 2.304
1979 2.304
1980 2.304
1981 2.304
1982 2.304
1983 2.304
1984 2.304
1985 2.304
1986 2.304
1987 2.304
1988 2.304
1989 2.304
1990 2.304
1991 2.304
1992 2.304
1993 2.304
1994 2.304
1995 2.304
1996 2.304
1997 2.304
1998 2.304
1999 2.304
2000 2.304
2001 2.304
2002 2.304
2003 2.304
2004 2.304
2005 2.304
2006 2.304
2007 2.304
2008 2.304
2009 2.304
2010 2.304
2011 2.304
2012 2.304
2013 2.304
2014 2.304
2015 2.304
2016 2.304
2017 2.304
2018 2.304
2019 2.304
2020 2.304
2021 2.304
2022 2.304
2023 2.304
2024 2.304
2025 2.304
2026 2.304
2027 2.304
2028 2.304
2029 2.304
2030 2.304
2031 2.304
2032 2.304
2033 2.304
2034 2.304
2035 2.304
2036 2.304
2037 2.304
2038 2.304
2039 2.304
2040 2.304
2041 2.304
2042 2.304
2043 2.304
2044 2.304
2045 2.304
2046 2.304
2047 2.304
2048 2.304
2049 2.304
2050 2.304
2051 2.304
2052 2.304
2053 2.304
2054 2.304
2055 2.304
2056 2.304
2057 2.304
2058 2.304
2059 2.304
2060 2.304
2061 2.304
2062 2.304
2063 2.304
2064 2.304
2065 2.304
2066 2.304
2067 2.304
2068 2.304
2069 2.304
2070 2.304
2071 2.304
2072 2.304
2073 2.304
2074 2.304
2075 2.304
2076 2.304
2077 2.304
2078 2.304
2079 2.304
2080 2.304
2081 2.304
2082 2.304
2083 2.304
2084 2.304
2085 2.304
2086 2.304
2087 2.304
2088 2.304
2089 2.304
2090 2.304
2091 2.304
2092 2.304
2093 2.304
2094 2.304
2095 2.304
2096 2.304
2097 2.304
2098 2.304
2099 2.304
2100 2.304
2101 2.304
2102 2.304
2103 2.304
2104 2.304
2105 2.304
2106 2.304
2107 2.304
2108 2.304
2109 2.304
2110 2.304
2111 2.304
2112 2.304
2113 2.304
2114 2.304
2115 2.304
2116 2.304
2117 2.304
2118 2.304
2119 2.304
2120 2.304
2121 2.304
2122 2.304
2123 2.304
2124 2.304
2125 2.304
2126 2.304
2127 2.304
2128 2.304
2129 2.304
2130 2.304
2131 2.304
2132 2.304
2133 2.304
2134 2.304
2135 2.304
2136 2.304
2137 2.304
2138 2.304
2139 2.304
2140 2.304
2141 2.304
2142 2.304
2143 2.304
2144 2.304
2145 2.304
2146 2.304
2147 2.304
2148 2.304
2149 2.304
2150 2.304
2151 2.304
2152 2.304
2153 2.304
2154 2.304
2155 2.304
2156 2.304
2157 2.304
2158 2.304
2159 2.304
2160 2.304
2161 2.304
2162 2.304
2163 2.304
2164 2.304
2165 2.304
2166 2.304
2167 2.304
2168 2.304
2169 2.304
2170 2.304
2171 2.304
2172 2.304
2173 2.304
2174 2.304
2175 2.304
2176 2.304
2177 2.304
2178 2.304
2179 2.304
2180 2.304
2181 2.304
2182 2.304
2183 2.304
2184 2.304
2185 2.304
2186 2.304
2187 2.304
2188 2.304
2189 2.304
2190 2.304
2191 2.304
2192 2.304
2193 2.304
2194 2.304
2195 2.304
2196 2.304
2197 2.304
2198 2.304
2199 2.304
2200 2.304
2201 2.304
2202 2.304
2203 2.304
2204 2.304
2205 2.304
2206 2.304
2207 2.304
2208 2.304
2209 2.304
2210 2.304
2211 2.304
2212 2.304
2213 2.304
2214 2.304
2215 2.304
2216 2.304
2217 2.304
2218 2.304
2219 2.304
2220 2.304
2221 2.304
2222 2.304
2223 2.304
2224 2.304
2225 2.304
2226 2.304
2227 2.304
2228 2.304
2229 2.304
2230 2.304
2231 2.304
2232 2.304
2233 2.304
2234 2.304
2235 2.304
2236 2.304
2237 2.304
2238 2.304
2239 2.304
2240 2.304
2241 2.304
2242 2.304
2243 2.304
2244 2.304
2245 2.304
2246 2.304
2247 2.304
2248 2.304
2249 2.304
2250 2.304
##END